{
  "resourceType": "Bundle",
  "type": "transaction",
  "entry": [
    {
      "resource": {
        "resourceType": "Patient",
        "id": "zika-example-patient",
        "gender": "female",
        "birthDate": "1998-03-15"
      },
      "request": {
        "method": "PUT",
        "url": "http://measure.eval.kanvix.com/cqf-ruler/baseDstu3/Patient/zika-example-patient"
      }
    },
    {
      "resource": {
        "resourceType": "Condition",
        "id": "zika-pregnancy-condition",
        "clinicalStatus": "active",
        "verificationStatus": "confirmed",
        "code": {
          "coding": [
            {
              "system": "http://hl7.org/fhir/sid/icd-9-cm",
              "code": "V22.0"
            }
          ]
        },
        "subject": {
          "reference": "Patient/zika-example-patient"
        },
        "onsetDateTime": "2017-09-16",
        "abatementDateTime": "2018-06-15"
      },
      "request": {
        "method": "PUT",
        "url": "http://measure.eval.kanvix.com/cqf-ruler/baseDstu3/Condition/zika-pregnancy-condition"
      }
    },
    {
      "resource": {
        "resourceType": "Condition",
        "id": "zika-symptoms-condition",
        "clinicalStatus": "active",
        "verificationStatus": "confirmed",
        "code": {
          "coding": [
            {
              "system": "http://snomed.info/sct",
              "code": "20160901"
            }
          ]
        },
        "subject": {
          "reference": "Patient/zika-example-patient"
        },
        "onsetDateTime": "2017-09-15",
        "abatementDateTime": "2017-10-15"
      },
      "request": {
        "method": "PUT",
        "url": "http://measure.eval.kanvix.com/cqf-ruler/baseDstu3/Condition/zika-symptoms-condition"
      }
    },
    {
      "resource": {
        "resourceType": "Observation",
        "id": "zika-area-resident-observation",
        "status": "final",
        "code": {
          "coding": [
            {
              "system": "http://example.org/questionnaires",
              "code": "Zika Virus Exposure Assessment"
            }
          ]
        },
        "subject": {
          "reference": "Patient/zika-example-patient"
        },
        "effectiveDateTime": "2017-06-22",
        "component": {
          "code": {
            "coding": [
              {
                "system": "http://example.org/questionnaires",
                "code": "CDE: Resident of or Frequent Traveler to Zika Area"
              }
            ]
          },
          "valueString": "Yes"
        }
      },
      "request": {
        "method": "PUT",
        "url": "http://measure.eval.kanvix.com/cqf-ruler/baseDstu3/Observation/zika-area-resident-observation"
      }
    },
    {
      "resource": {
        "resourceType": "Observation",
        "id": "zika-area-travel-observation",
        "status": "final",
        "code": {
          "coding": [
            {
              "system": "http://example.org/questionnaires",
              "code": "Zika Virus Exposure Assessment"
            }
          ]
        },
        "subject": {
          "reference": "Patient/zika-example-patient"
        },
        "effectiveDateTime": "2017-08-12",
        "component": {
          "code": {
            "coding": [
              {
                "system": "http://example.org/questionnaires",
                "code": "CDE: Recent Travel to Zika Area"
              }
            ]
          },
          "valueString": "Yes"
        }
      },
      "request": {
        "method": "PUT",
        "url": "http://measure.eval.kanvix.com/cqf-ruler/baseDstu3/Observation/zika-area-travel-observation"
      }
    },
    {
      "resource": {
        "resourceType": "Observation",
        "id": "zika-time-since-travel-observation",
        "status": "final",
        "code": {
          "coding": [
            {
              "system": "http://example.org/questionnaires",
              "code": "Zika Virus Exposure Assessment"
            }
          ]
        },
        "subject": {
          "reference": "Patient/zika-example-patient"
        },
        "effectiveDateTime": "2017-10-12",
        "component": {
          "code": {
            "coding": [
              {
                "system": "http://example.org/questionnaires",
                "code": "CDE: Time Since Returned From Travel"
              }
            ]
          },
          "valueQuantity": {
            "value": "1",
            "unit": "wk"
          }
        }
      },
      "request": {
        "method": "PUT",
        "url": "http://measure.eval.kanvix.com/cqf-ruler/baseDstu3/Observation/zika-time-since-travel-observation"
      }
    },
    {
      "resource": {
        "resourceType": "Observation",
        "id": "zika-area-travel-sex-observation",
        "status": "final",
        "code": {
          "coding": [
            {
              "system": "http://example.org/questionnaires",
              "code": "Zika Virus Exposure Assessment"
            }
          ]
        },
        "subject": {
          "reference": "Patient/zika-example-patient"
        },
        "effectiveDateTime": "2017-04-02",
        "component": {
          "code": {
            "coding": [
              {
                "system": "http://example.org/questionnaires",
                "code": "CDE: Recent Sexual Encounter With Traveler to Zika Area"
              }
            ]
          },
          "valueString": "Yes"
        }
      },
      "request": {
        "method": "PUT",
        "url": "http://measure.eval.kanvix.com/cqf-ruler/baseDstu3/Observation/zika-area-travel-sex-observation"
      }
    },
    {
      "resource": {
        "resourceType": "Observation",
        "id": "zika-time-since-travel-sex-observation",
        "status": "final",
        "code": {
          "coding": [
            {
              "system": "http://example.org/questionnaires",
              "code": "Zika Virus Exposure Assessment"
            }
          ]
        },
        "subject": {
          "reference": "Patient/zika-example-patient"
        },
        "effectiveDateTime": "2017-10-30",
        "component": {
          "code": {
            "coding": [
              {
                "system": "http://example.org/questionnaires",
                "code": "CDE: Time Since Sexual Encounter"
              }
            ]
          },
          "valueQuantity": {
            "value": "1",
            "unit": "wk"
          }
        }
      },
      "request": {
        "method": "PUT",
        "url": "http://measure.eval.kanvix.com/cqf-ruler/baseDstu3/Observation/zika-time-since-travel-sex-observation"
      }
    },
    {
      "resource": {
        "resourceType": "Observation",
        "id": "zika-area-travel-planned-observation",
        "status": "final",
        "code": {
          "coding": [
            {
              "system": "http://example.org/questionnaires",
              "code": "Zika Virus Exposure Assessment"
            }
          ]
        },
        "subject": {
          "reference": "Patient/zika-example-patient"
        },
        "effectiveDateTime": "2017-10-12",
        "component": {
          "code": {
            "coding": [
              {
                "system": "http://example.org/questionnaires",
                "code": "CDE: Planned Travel to Zika Area"
              }
            ]
          },
          "valueString": "Yes"
        }
      },
      "request": {
        "method": "PUT",
        "url": "http://measure.eval.kanvix.com/cqf-ruler/baseDstu3/Observation/zika-area-travel-planned-observation"
      }
    },
    {
      "resource": {
        "resourceType": "Library",
        "id": "patient-view",
        "version": "1.0.1",
        "status": "active",
        "experimental": true,
        "type": {
          "coding": [
            {
              "code": "logic-library"
            }
          ]
        },
        "dataRequirement": [
          {
            "type": "Condition",
            "codeFilter": [
              {
                "path": "code",
                "valueSetString": "Pregnancy"
              }
            ]
          },
          {
            "type": "Observation",
            "codeFilter": [
              {
                "path": "code"
              }
            ]
          },
          {
            "type": "Condition",
            "codeFilter": [
              {
                "path": "code",
                "valueSetString": "Zika Virus Signs and Symptoms"
              }
            ]
          }
        ],
        "content": [
          {
            "contentType": "application/elm+xml",
            "data": ""
          }
        ]
      },
      "search": {
        "mode": "match"
      },
      "request": {
        "method": "PUT",
        "url": "http://measure.eval.kanvix.com/cqf-ruler/baseDstu3/Library/patient-view"
      }
    },
    {
      "resource": {
        "resourceType": "ActivityDefinition",
        "id": "administer-zika-virus-exposure-assessment",
        "text": {
          "status": "generated",
          "div": "<div xmlns=\"http://www.w3.org/1999/xhtml\">Aminister Zika Virus Exposure Assessment</div>"
        },
        "timingTiming": {
          "_event": [
            {
              "extension": [
                {
                  "url": "http://hl7.org/fhir/StructureDefinition/cqif-basic-cqlExpression",
                  "valueString": "Now()"
                }
              ]
            }
          ]
        },
        "url": "http://example.org/ActivityDefinition/administer-zika-virus-exposure-assessment",
        "status": "draft",
        "description": "Administer Zika Virus Exposure Assessment",
        "kind": "Procedure",
        "code": {
          "coding": [
            {
              "system": "http://example.org/questionnaires",
              "code": "zika-virus-exposure-assessment"
            }
          ]
        },
        "participant": [
          {
            "type": "practitioner"
          }
        ]
      },
      "request": {
        "method": "PUT",
        "url": "http://measure.eval.kanvix.com/cqf-ruler/baseDstu3/ActivityDefinition/administer-zika-virus-exposure-assessment"
      }
    },
    {
      "resource": {
        "resourceType": "ActivityDefinition",
        "id": "consider-igm-antibody-testing",
        "text": {
          "status": "generated",
          "div": "<div xmlns=\"http://www.w3.org/1999/xhtml\">Consider IgM Antibody Testing</div>"
        },
        "timingTiming": {
          "_event": [
            {
              "extension": [
                {
                  "url": "http://hl7.org/fhir/StructureDefinition/cqif-basic-cqlExpression",
                  "valueString": "Now()"
                }
              ]
            }
          ]
        },
        "url": "http://example.org/ActivityDefinition/consider-igm-antibody-testing",
        "status": "draft",
        "description": "Consider IgM Antibody Testing",
        "kind": "ProcedureRequest",
        "code": {
          "text": "IgM Antibody testing might be considered. Consult with local health department"
        },
        "participant": [
          {
            "type": "practitioner"
          }
        ]
      },
      "request": {
        "method": "PUT",
        "url": "http://measure.eval.kanvix.com/cqf-ruler/baseDstu3/ActivityDefinition/consider-igm-antibody-testing"
      }
    },
    {
      "resource": {
        "resourceType": "ActivityDefinition",
        "id": "serum-urine-rrt-pcr-test",
        "text": {
          "status": "generated",
          "div": "<div xmlns=\"http://www.w3.org/1999/xhtml\">Order Serum + Urine rRT-PCR Test</div>"
        },
        "timingTiming": {
          "_event": [
            {
              "extension": [
                {
                  "url": "http://hl7.org/fhir/StructureDefinition/cqif-basic-cqlExpression",
                  "valueString": "Now()"
                }
              ]
            }
          ]
        },
        "url": "http://example.org/ActivityDefinition/serum-urine-rrt-pcr-test",
        "status": "draft",
        "description": "Order Serum + Urine rRT-PCR Test",
        "relatedArtifact": [
          {
            "type": "documentation",
            "display": "Explanation of diagnostic tests for Zika virus and which to use based on the patient’s clinical and exposure history.",
            "url": "http://www.cdc.gov/zika/hc-providers/diagnostic.html"
          }
        ],
        "kind": "DiagnosticReport",
        "code": {
          "text": "Serum + Urine rRT-PCR Test"
        },
        "participant": [
          {
            "type": "practitioner"
          }
        ]
      },
      "request": {
        "method": "PUT",
        "url": "http://measure.eval.kanvix.com/cqf-ruler/baseDstu3/ActivityDefinition/serum-urine-rrt-pcr-test"
      }
    },
    {
      "resource": {
        "resourceType": "ActivityDefinition",
        "id": "serum-zika-dengue-virus-igm",
        "text": {
          "status": "generated",
          "div": "<div xmlns=\"http://www.w3.org/1999/xhtml\">Order Serum Zika and Dengue Virus IgM</div>"
        },
        "timingTiming": {
          "_event": [
            {
              "extension": [
                {
                  "url": "http://hl7.org/fhir/StructureDefinition/cqif-basic-cqlExpression",
                  "valueString": "Now()"
                }
              ]
            }
          ]
        },
        "url": "http://example.org/ActivityDefinition/serum-zika-dengue-virus-igm",
        "status": "draft",
        "description": "Order Serum Zika and Dengue Virus IgM",
        "relatedArtifact": [
          {
            "type": "documentation",
            "display": "Explanation of diagnostic tests for Zika virus and which to use based on the patient’s clinical and exposure history.",
            "url": "http://www.cdc.gov/zika/hc-providers/diagnostic.html"
          }
        ],
        "kind": "DiagnosticReport",
        "code": {
          "text": "Serum Zika and Dengue Virus IgM"
        },
        "participant": [
          {
            "type": "practitioner"
          }
        ]
      },
      "request": {
        "method": "PUT",
        "url": "http://measure.eval.kanvix.com/cqf-ruler/baseDstu3/ActivityDefinition/serum-zika-dengue-virus-igm"
      }
    },
    {
      "resource": {
        "resourceType": "ActivityDefinition",
        "id": "provide-contraception-advice",
        "text": {
          "status": "generated",
          "div": "<div xmlns=\"http://www.w3.org/1999/xhtml\">Provide Contraception Advice</div>"
        },
        "timingTiming": {
          "_event": [
            {
              "extension": [
                {
                  "url": "http://hl7.org/fhir/StructureDefinition/cqif-basic-cqlExpression",
                  "valueString": "Now()"
                }
              ]
            }
          ]
        },
        "url": "http://example.org/ActivityDefinition/provide-contraception-advice",
        "status": "draft",
        "description": "Provide contraception advice",
        "relatedArtifact": [
          {
            "type": "documentation",
            "display": "The most current interim guidelines for prevention of sexual transmission of Zika virus.",
            "url": "http://www.cdc.gov/zika/transmission/index.html"
          },
          {
            "type": "documentation",
            "url": "http://www.cdc.gov/mmwr/volumes/65/wr/mm6512e3.htm"
          }
        ],
        "kind": "Communication",
        "code": {
          "text": "Provide Contraception Advice"
        },
        "participant": [
          {
            "type": "practitioner"
          }
        ]
      },
      "request": {
        "method": "PUT",
        "url": "http://measure.eval.kanvix.com/cqf-ruler/baseDstu3/ActivityDefinition/provide-contraception-advice"
      }
    },
    {
      "resource": {
        "resourceType": "ActivityDefinition",
        "id": "provide-mosquito-prevention-advice",
        "text": {
          "status": "generated",
          "div": "<div xmlns=\"http://www.w3.org/1999/xhtml\">Provide Mosquito Prevention Advice</div>"
        },
        "timingTiming": {
          "_event": [
            {
              "extension": [
                {
                  "url": "http://hl7.org/fhir/StructureDefinition/cqif-basic-cqlExpression",
                  "valueString": "Now()"
                }
              ]
            }
          ]
        },
        "url": "http://example.org/ActivityDefinition/provide-mosquito-prevention-advice",
        "status": "draft",
        "description": "Provide mosquito prevention advice",
        "relatedArtifact": [
          {
            "type": "documentation",
            "display": "Advice for patients about how to avoid Mosquito bites.",
            "url": "http://www.cdc.gov/zika/prevention/index.html"
          },
          {
            "type": "documentation",
            "display": "Advice for patients about which mosquito repellents are effective and safe to use in pregnancy. [DEET, IF3535 and Picardin are safe during]",
            "url": "https://www.epa.gov/insect-repellents/find-insect-repellent-right-you"
          }
        ],
        "kind": "Communication",
        "code": {
          "text": "Provide Mosquito Prevention Advice"
        },
        "participant": [
          {
            "type": "practitioner"
          }
        ]
      },
      "request": {
        "method": "PUT",
        "url": "http://measure.eval.kanvix.com/cqf-ruler/baseDstu3/ActivityDefinition/provide-mosquito-prevention-advice"
      }
    },
    {
      "resource": {
        "resourceType": "PlanDefinition",
        "id": "zika-virus-intervention",
        "text": {
          "status": "generated",
          "div": "<div xmlns=\"http://www.w3.org/1999/xhtml\">Zika Virus Intervention</div>"
        },
        "url": "http://example.org/PlanDefinition/zika-virus-intervention",
        "identifier": [
          {
            "use": "official",
            "value": "zika-virus-intervention"
          }
        ],
        "version": "1.0.0",
        "title": "Example Zika Virus Intervention",
        "status": "active",
        "date": "2016-11-14",
        "description": "Zika Virus Management intervention describing the CDC Guidelines for Zika Virus Reporting and Management.",
        "topic": [
          {
            "text": "Zika Virus Management"
          }
        ],
        "library": [
          {
            "reference": "Library/patient-view"
          }
        ],
        "action": [
          {
            "title": "Zika Virus Assessment",
            "triggerDefinition": [
              {
                "type": "named-event",
                "eventName": "patient-view"
              }
            ],
            "condition": [
              {
                "kind": "applicability",
                "expression": "Is Patient Pregnant"
              }
            ],
            "action": [
              {
                "condition": [
                  {
                    "kind": "applicability",
                    "expression": "Should Administer Zika Virus Exposure Assessment"
                  }
                ],
                "definition": {
                  "reference": "ActivityDefinition/administer-zika-virus-exposure-assessment"
                }
              },
              {
                "condition": [
                  {
                    "kind": "applicability",
                    "expression": "Should Order Serum + Urine rRT-PCR Test"
                  }
                ],
                "definition": {
                  "reference": "ActivityDefinition/order-serum-urine-rrt-pcr-test"
                }
              },
              {
                "condition": [
                  {
                    "kind": "applicability",
                    "language": "text/cql",
                    "expression": "Should Order Serum Zika Virus IgM + Dengue Virus IgM"
                  }
                ],
                "definition": {
                  "reference": "ActivityDefinition/serum-zika-dengue-virus-igm"
                }
              },
              {
                "condition": [
                  {
                    "kind": "applicability",
                    "language": "text/cql",
                    "expression": "Should Consider IgM Antibody Testing"
                  }
                ],
                "definition": {
                  "reference": "ActivityDefinition/consider-igm-antibody-testing"
                }
              },
              {
                "condition": [
                  {
                    "kind": "applicability",
                    "language": "text/cql",
                    "expression": "Should Provide Mosquito Prevention and Contraception Advice"
                  }
                ],
                "action": [
                  {
                    "definition": {
                      "reference": "ActivityDefinition/provide-mosquito-prevention-advice"
                    }
                  },
                  {
                    "definition": {
                      "reference": "ActivityDefinition/provide-contraception-advice"
                    }
                  }
                ]
              }
            ]
          }
        ]
      },
      "request": {
        "method": "PUT",
        "url": "http://measure.eval.kanvix.com/cqf-ruler/baseDstu3/PlanDefinition/zika-virus-intervention"
      }
    },
    {
      "resource": {
        "resourceType": "Questionnaire",
        "id": "zika-virus-exposure-assessment",
        "text": {
          "status": "generated",
          "div": "<div xmlns=\"http://www.w3.org/1999/xhtml\">\n      <pre>\n      </pre>\n    </div>"
        },
        "url": "http://example.org/Questionnaire/zika-virus-exposure-assessment",
        "title": "Example Zika Virus Exposure Assessment",
        "status": "draft",
        "date": "2016-11-14",
        "subjectType": [
          "Patient"
        ],
        "item": [
          {
            "extension": [
              {
                "url": "http://example.org/additional-information",
                "valueAttachment": {
                  "url": "http://www.cdc.gov/zika/geo/index.html",
                  "title": "Areas with active Zika virus transmission/exposure risk"
                }
              }
            ],
            "linkId": "1",
            "code": [
              {
                "system": "http://example.org/questionnaires",
                "code": "CDE: Resident of or Frequent Traveler to Zika Area"
              }
            ],
            "text": "Are you a resident of, or do you travel frequently to, an area with active Zika transmission?",
            "type": "boolean"
          },
          {
            "extension": [
              {
                "url": "http://example.org/additional-information",
                "valueAttachment": {
                  "url": "http://www.cdc.gov/zika/geo/index.html",
                  "title": "Areas with active Zika virus transmission/exposure risk"
                }
              }
            ],
            "linkId": "2",
            "code": [
              {
                "system": "http://example.org/questionnaires",
                "code": "CDE: Recent Travel to Zika Area"
              }
            ],
            "text": "Have you recently traveled to a an area with active Zika transmission?",
            "type": "boolean",
            "enableWhen": [
              {
                "question": "1",
                "answerBoolean": false
              }
            ]
          },
          {
            "linkId": "3",
            "code": [
              {
                "system": "http://example.org/questionnaires",
                "code": "CDE: Time Since Returned From Travel"
              }
            ],
            "text": "How long has it been since you returned?",
            "type": "quantity",
            "enableWhen": [
              {
                "question": "2",
                "answerBoolean": true
              }
            ]
          },
          {
            "extension": [
              {
                "url": "http://example.org/additional-information",
                "valueAttachment": {
                  "url": "http://www.cdc.gov/zika/geo/index.html",
                  "title": "Areas with active Zika virus transmission/exposure risk"
                }
              }
            ],
            "linkId": "4",
            "code": [
              {
                "system": "http://example.org/questionnaires",
                "code": "CDE: Recent Sexual Encounter with Traveler to Zika Area"
              }
            ],
            "text": "Have you recently had condomless sex with a partner that has travelled in an area with active Zika transmission?",
            "type": "boolean",
            "enableWhen": [
              {
                "question": "2",
                "answerBoolean": false
              }
            ]
          },
          {
            "linkId": "5",
            "code": [
              {
                "system": "http://example.org/questionnaires",
                "code": "CDE: Time Since Sexual Encounter"
              }
            ],
            "text": "How long has it been since your last condomless sexual encounter?",
            "type": "quantity",
            "enableWhen": [
              {
                "question": "4",
                "answerBoolean": true
              }
            ]
          },
          {
            "extension": [
              {
                "url": "http://example.org/additional-information",
                "valueAttachment": {
                  "url": "http://www.cdc.gov/zika/geo/index.html",
                  "title": "Areas with active Zika virus transmission/exposure risk"
                }
              }
            ],
            "linkId": "6",
            "code": [
              {
                "system": "http://example.org/questionnaires",
                "code": "CDE: Planned Travel to Zika Area"
              }
            ],
            "text": "Do you plan to travel to an area with active Zika transmission?",
            "type": "boolean",
            "enableWhen": [
              {
                "question": "4",
                "answerBoolean": false
              }
            ]
          }
        ]
      },
      "request": {
        "method": "PUT",
        "url": "http://measure.eval.kanvix.com/cqf-ruler/baseDstu3/Questionnaire/zika-virus-exposure-assessment"
      }
    },
    {
      "resource": {
        "resourceType": "Library",
        "id": "fhir-model-definition",
        "text": {
          "status": "generated",
          "div": "<div xmlns=\"http://www.w3.org/1999/xhtml\">FHIR Model Definition</div>"
        },
        "identifier": [
          {
            "use": "official",
            "value": "FHIR"
          }
        ],
        "version": "3.0.0",
        "title": "FHIR Model Definition",
        "type": {
          "coding": [
            {
              "code": "model-definition"
            }
          ]
        },
        "status": "active",
        "experimental": true,
        "date": "2017-01-14",
        "description": "FHIR Model Definition",
        "topic": [
          {
            "text": "FHIR Model Definition"
          }
        ],
        "content": [
          {
            "contentType": "application/elm+xml",
            "data": ""
          }
        ]
      },
      "request": {
        "method": "PUT",
        "url": "http://measure.eval.kanvix.com/cqf-ruler/baseDstu3/Library/fhir-model-definition"
      }
    },
    {
      "resource": {
        "resourceType": "Library",
        "id": "FHIRHelpers",
        "version": "3.0.0",
        "type": {
          "coding": [
            {
              "code": "logic-library"
            }
          ]
        },
        "status": "draft",
        "content": [
          {
            "contentType": "text/cql",
            "data": ""
          }
        ]
      },
      "request": {
        "method": "PUT",
        "url": "http://measure.eval.kanvix.com/cqf-ruler/baseDstu3/Library/FHIRHelpers"
      }
    }
  ]
}
