{
  "resourceType": "Bundle",
  "type": "transaction",
  "entry": [
    {
      "resource": {
        "resourceType": "Patient",
        "id": "Patient-276",
        "meta": {
          "versionId": "1",
          "lastUpdated": "2017-07-24T19:36:37.848+00:00"
        },
        "text": {
          "status": "generated",
          "div": "<div xmlns=\"http://www.w3.org/1999/xhtml\"><div class=\"hapiHeaderText\">Andrea Montgomery <b>WOODARD </b></div><table class=\"hapiPropertyTable\"><tbody><tr><td>Identifier</td><td>000000014</td></tr><tr><td>Address</td><td><span>637 Jefferson Court </span><br/><span>West Bloomfield </span><span>MI </span></td></tr><tr><td>Date of birth</td><td><span>07 August 1960</span></td></tr></tbody></table></div>"
        },
        "extension": [
          {
            "url": "http://hl7.org/fhir/StructureDefinition/us-core-race",
            "valueCodeableConcept": {
              "coding": [
                {
                  "system": "http://hl7.org/fhir/v3/Race",
                  "code": "2106-3",
                  "display": "White"
                }
              ]
            }
          },
          {
            "url": "http://hl7.org/fhir/StructureDefinition/us-core-ethnicity",
            "valueCodeableConcept": {
              "coding": [
                {
                  "system": "http://hl7.org/fhir/v3/Ethnicity",
                  "code": "2186-5",
                  "display": "Not Hispanic or Latino"
                }
              ]
            }
          },
          {
            "url": "http://hl7.org/fhir/StructureDefinition/us-core-religion",
            "valueCodeableConcept": {
              "coding": [
                {
                  "system": "http://hl7.org/fhir/v3/ReligiousAffiliation",
                  "code": "1041",
                  "display": "Roman Catholic Church"
                }
              ]
            }
          }
        ],
        "identifier": [
          {
            "use": "official",
            "type": {
              "coding": [
                {
                  "system": "http://hl7.org/fhir/identifier-type",
                  "code": "SB",
                  "display": "Social Beneficiary Identifier"
                }
              ],
              "text": "US Social Security Number"
            },
            "system": "http://hl7.org/fhir/sid/us-ssn",
            "value": "000000014"
          },
          {
            "use": "official",
            "type": {
              "coding": [
                {
                  "system": "http://hl7.org/fhir/identifier-type",
                  "code": "SB",
                  "display": "Social Beneficiary Identifier"
                }
              ],
              "text": "Michigan Common Key Service Identifier"
            },
            "system": "http://mihin.org/fhir/cks",
            "value": "d74e60bc008b463e8072d792aa15095e"
          }
        ],
        "active": true,
        "name": [
          {
            "family": "Woodard",
            "given": [
              "Andrea",
              "Montgomery"
            ]
          }
        ],
        "telecom": [
          {
            "system": "phone",
            "value": "248-555-6663",
            "use": "home"
          },
          {
            "system": "phone",
            "value": "248-555-9907",
            "use": "mobile"
          }
        ],
        "gender": "female",
        "birthDate": "1960-08-07",
        "address": [
          {
            "use": "home",
            "type": "postal",
            "line": [
              "637 Jefferson Court"
            ],
            "city": "West Bloomfield",
            "district": "Oakland County",
            "state": "MI",
            "postalCode": "48322"
          }
        ]
      },
      "request": {
        "method": "PUT",
        "url": "http://localhost:8080/cqf-ruler/baseDstu3/Patient/Patient-276"
      }
    },
    {
      "resource": {
        "resourceType": "Library",
        "id": "OrderReview",
        "version": "1.0",
        "status": "active",
        "experimental": true,
        "type": {
          "coding": [
            {
              "code": "logic-library"
            }
          ]
        },
        "content": [
          {
            "contentType": "text/cql",
            "data": ""
          }
        ]
      },
      "request": {
        "method": "PUT",
        "url": "http://localhost:8080/cqf-ruler/baseDstu3/Library/OrderReview"
      }
    },
    {
      "resource": {
        "resourceType": "Library",
        "id": "FHIRHelpers",
        "version": "3.0.0",
        "type": {
          "coding": [
            {
              "code": "logic-library"
            }
          ]
        },
        "status": "draft",
        "content": [
          {
            "contentType": "text/cql",
            "data": ""
          }
        ]
      },
      "request": {
        "method": "PUT",
        "url": "http://localhost:8080/cqf-ruler/baseDstu3/Library/FHIRHelpers"
      }
    },
    {
      "resource": {
        "resourceType": "PlanDefinition",
        "id": "radiology-appropriateness",
        "status": "draft",
        "library": {
          "reference": "Library/OrderReview"
        },
        "action": [
          {
            "condition": [
              {
                "kind": "applicability",
                "language": "text/cql",
                "expression": "Is Appropriate Category"
              }
            ],
            "definition": {
              "reference": "ActivityDefinition/radiology-appropriate"
            }
          },
          {
            "condition": [
              {
                "kind": "applicability",
                "language": "text/cql",
                "expression": "Is Uncertain Category"
              }
            ],
            "definition": {
              "reference": "ActivityDefinition/radiology-uncertain"
            }
          },
          {
            "condition": [
              {
                "kind": "applicability",
                "language": "text/cql",
                "expression": "Is Inappropriate Category"
              }
            ],
            "definition": {
              "reference": "ActivityDefinition/radiology-inappropriate"
            }
          }
        ]
      },
      "request": {
        "method": "PUT",
        "url": "http://localhost:8080/cqf-ruler/baseDstu3/PlanDefinition/radiology-appropriateness"
      }
    },
    {
      "resource": {
        "resourceType": "ActivityDefinition",
        "id": "radiology-appropriate",
        "extension": [
          {
            "url": "http://hl7.org/fhir/us/qicore/StructureDefinition/procedurerequest-appropriatenessScore",
            "valueDecimal": ""
          }
        ],
        "status": "draft",
        "description": "Adds appropriatenesScore to reource",
        "library": [
          {
            "reference": "Library/OrderReview"
          }
        ],
        "kind": "ProcedureRequest",
        "dynamicValue": [
          {
            "description": "Set ProcedureRequest ID property",
            "path": "id",
            "expression": "OrderReview.\"Get ID\""
          },
          {
            "description": "Set ProcedureRequest appropriatenessScore extension property",
            "path": "extension[0].valueDecimal",
            "expression": "OrderReview.\"Get Appropriateness Score\""
          },
          {
            "description": "Set ProcedureRequest status property",
            "path": "status",
            "expression": "OrderReview.\"Get Status\""
          },
          {
            "description": "Set ProcedureRequest intent property",
            "path": "intent",
            "expression": "OrderReview.\"Get Intent\""
          },
          {
            "description": "Set ProcedureRequest priority property",
            "path": "priority",
            "expression": "OrderReview.\"Get Priority\""
          }
        ]
      },
      "request": {
        "method": "PUT",
        "url": "http://localhost:8080/cqf-ruler/baseDstu3/ActivityDefinition/radiology-appropriate"
      }
    },
    {
      "resource": {
        "resourceType": "ActivityDefinition",
        "id": "radiology-uncertain",
        "extension": [
          {
            "url": "http://hl7.org/fhir/us/qicore/StructureDefinition/procedurerequest-appropriatenessScore",
            "valueDecimal": ""
          }
        ],
        "status": "draft",
        "description": "Adds appropriatenesScore to reource",
        "library": [
          {
            "reference": "Library/OrderReview"
          }
        ],
        "kind": "ProcedureRequest",
        "dynamicValue": [
          {
            "description": "Set ProcedureRequest ID property",
            "path": "id",
            "expression": "OrderReview.\"Get ID\""
          },
          {
            "description": "Set ProcedureRequest appropriatenessScore extension property",
            "path": "extension[0].valueDecimal",
            "expression": "OrderReview.\"Get Appropriateness Score\""
          },
          {
            "description": "Set ProcedureRequest status property",
            "path": "status",
            "expression": "OrderReview.\"Get Status\""
          },
          {
            "description": "Set ProcedureRequest intent property",
            "path": "intent",
            "expression": "OrderReview.\"Get Intent\""
          },
          {
            "description": "Set ProcedureRequest priority property",
            "path": "priority",
            "expression": "OrderReview.\"Get Priority\""
          }
        ]
      },
      "request": {
        "method": "PUT",
        "url": "http://localhost:8080/cqf-ruler/baseDstu3/ActivityDefinition/radiology-uncertain"
      }
    },
    {
      "resource": {
        "resourceType": "ActivityDefinition",
        "id": "radiology-inappropriate",
        "extension": [
          {
            "url": "http://hl7.org/fhir/us/qicore/StructureDefinition/procedurerequest-appropriatenessScore",
            "valueDecimal": ""
          }
        ],
        "status": "draft",
        "description": "Adds appropriatenesScore to reource",
        "library": [
          {
            "reference": "Library/OrderReview"
          }
        ],
        "kind": "ProcedureRequest",
        "dynamicValue": [
          {
            "description": "Set ProcedureRequest ID property",
            "path": "id",
            "expression": "OrderReview.\"Get ID\""
          },
          {
            "description": "Set ProcedureRequest appropriatenessScore extension property",
            "path": "extension[0].valueDecimal",
            "expression": "OrderReview.\"Get Appropriateness Score\""
          },
          {
            "description": "Set ProcedureRequest status property",
            "path": "status",
            "expression": "OrderReview.\"Get Status\""
          },
          {
            "description": "Set ProcedureRequest intent property",
            "path": "intent",
            "expression": "OrderReview.\"Get Intent\""
          },
          {
            "description": "Set ProcedureRequest priority property",
            "path": "priority",
            "expression": "OrderReview.\"Get Priority\""
          }
        ]
      },
      "request": {
        "method": "PUT",
        "url": "http://localhost:8080/cqf-ruler/baseDstu3/ActivityDefinition/radiology-inappropriate"
      }
    }
  ]
}